Folder: CHM-343

Note: Benzoic Acid .txt
Benzoic Acid C7H6O2			
Ideal Gas at 298.13 K			
Std. Enthalpy of Formation	101.640	kJ mol-1	
Speed of Sound	187.830	m/s	
Adiabatic Index	1.110		
Enthalpy			
Translational	6.200	kJ mol-1	
Rotational	3.720	kJ mol-1	
Vibrational	250.490	kJ mol-1	
Total	260.410	kJ mol-1	
Heat Capacity at Constant Volume			
Translational	12.470	J mol-1ÊK-1	
Rotational	12.470	J mol-1ÊK-1	
Vibrational	49.430	J mol-1ÊK-1	
Total	74.370	J mol-1ÊK-1	
Heat Capacity at Constant Pressure			
Translational	20.790	J mol-1ÊK-1	
Rotational	12.470	J mol-1ÊK-1	
Vibrational	49.430	J mol-1ÊK-1	
Total	82.680	J mol-1ÊK-1	
Entropy			
Translational	163.090	J mol-1ÊK-1	
Rotational	107.400	J mol-1ÊK-1	
Vibrational	21.500	J mol-1ÊK-1	
Total	291.980	J mol-1ÊK-1

Note: Book3.txt
Gas	Temperature (C)
Argon	24.5
Carbon Dioxide	24.5
Nitrogen	24.4
Refrigerant Gas	24.6

Note: Data_Benz_Acid.txt
Time	 Temperature
0	23
1	23
2	23
3	23
4	23
5	23
5.25	23.02
5.5	23.36
5.75	23.87
6	24.39
6.25	24.86
6.5	25.25
6.75	25.57
7	25.82
7.25	26.01
7.5	26.16
7.75	26.27
8	26.35
9	26.53
10	26.57
11	26.56
12	26.56
13	26.55
14	26.55
15	26.55
16	26.54
17	26.54
18	26.53

Note: Data_Lauric.txt
Time	 Temperature
0	22
1	22
2	22
3	22
4	22
5	22
5.25	22.03
5.5	22.5
5.75	23.21
6	23.94
6.25	24.59
6.5	25.14
6.75	25.58
7	25.93
7.25	26.2
7.5	26.4
7.75	26.56
8	26.68
9	26.91
10	26.98
11	26.97
12	26.96
13	26.95
14	26.95
15	26.94
16	26.93
17	26.93
18	26.92

Note: Data_Napth.txt
Time	 Temperature
0	22
1	22
2	22
3	22.01
4	22
5	22.01
5.25	22.04
5.5	22.55
5.75	23.33
6	24.12
6.25	24.83
6.5	25.43
6.75	25.92
7	26.3
7.25	26.59
7.5	26.81
7.75	26.98
8	27.11
9	27.37
10	27.44
11	27.42
12	27.42
13	27.41
14	27.4
15	27.4
16	27.39
17	27.38
18	27.38

Note: Data_Sucrose.txt
Time	 Temperature
0	24
1	24
2	24
3	24
4	24.01
5	24
5.25	24.02
5.5	24.23
5.75	24.55
6	24.87
6.25	25.17
6.5	25.41
6.75	25.61
7	25.77
7.25	25.89
7.5	25.98
7.75	26.05
8	26.1
9	26.21
10	26.24
11	26.24
12	26.24
13	26.23
14	26.23
15	26.23
16	26.23
17	26.23
18	26.22

File: 2024_09_17_sucrose_chm343_dsc.txt
Filename	2024_09_17_sucrose_chm343_dsc
Instrument name	DSC2A-00468 (192.168.1.100)
Operator	CHM343
rundate	9/17/2024
Sample name	2024_09_17_Sucrose_CHM343_DSC
proceduresegments	Equilibrate 30.00 °C; Ramp 10.00 °C/min to 210.00 °C; Isothermal 1.0 min; Ramp 10.00 °C/min to 30.00 °C; Isothermal 1.0 min; Ramp 10.00 °C/min to 210.00 °C
[step]
Ramp 10.00 °C/min to 210.00 °C
Time	Temperature	Heat Flow (Normalized)
min	°C	W/g
0.00	30.06	-0.053
0.06	30.09	-0.049
0.12	30.30	-0.076
0.19	30.71	0.025
0.25	31.22	0.102
0.31	31.77	0.144
0.37	32.35	0.170
0.43	32.95	0.183
0.49	33.55	0.192
0.55	34.15	0.195
0.62	34.76	0.198
0.68	35.37	0.200
0.74	35.99	0.201
0.80	36.60	0.203
0.86	37.21	0.204
0.93	37.82	0.205
0.99	38.44	0.206
1.05	39.05	0.207
1.11	39.67	0.207
1.17	40.28	0.208
1.23	40.90	0.208
1.29	41.51	0.209
1.36	42.13	0.209
1.42	42.74	0.209
1.48	43.36	0.210
1.54	43.97	0.210
1.60	44.59	0.210
1.67	45.21	0.211
1.73	45.83	0.211
1.79	46.44	0.211
1.85	47.06	0.211
1.91	47.67	0.212
1.97	48.29	0.212
2.03	48.91	0.212
2.10	49.53	0.212
2.16	50.14	0.213
2.22	50.76	0.213
2.28	51.38	0.213
2.34	51.99	0.213
2.41	52.61	0.214
2.47	53.23	0.214
2.53	53.85	0.214
2.59	54.46	0.215
2.65	55.08	0.215
2.71	55.70	0.215
2.78	56.31	0.215
2.84	56.93	0.216
2.90	57.55	0.216
2.96	58.16	0.216
3.02	58.78	0.217
3.08	59.40	0.217
3.14	60.02	0.217
3.21	60.63	0.218
3.27	61.25	0.218
3.33	61.87	0.218
3.39	62.48	0.219
3.45	63.10	0.219
3.51	63.72	0.219
3.58	64.34	0.220
3.64	64.95	0.220
3.70	65.57	0.221
3.76	66.19	0.221
3.82	66.80	0.221
3.89	67.42	0.222
3.95	68.04	0.222
4.01	68.66	0.222
4.07	69.27	0.223
4.13	69.89	0.223
4.19	70.51	0.224
4.26	71.12	0.224
4.32	71.74	0.225
4.38	72.36	0.225
4.44	72.97	0.225
4.50	73.59	0.226
4.56	74.21	0.226
4.63	74.83	0.227
4.69	75.44	0.227
4.75	76.06	0.228
4.81	76.68	0.228
4.87	77.30	0.229
4.93	77.91	0.229
5.00	78.53	0.230
5.06	79.15	0.230
5.12	79.76	0.230
5.18	80.38	0.231
5.24	81.00	0.231
5.30	81.61	0.232
5.36	82.23	0.232
5.43	82.85	0.232
5.49	83.47	0.233
5.55	84.08	0.233
5.61	84.70	0.233
5.67	85.32	0.234
5.74	85.93	0.234
5.80	86.55	0.234
5.86	87.17	0.235
5.92	87.79	0.235
5.98	88.40	0.236
6.04	89.02	0.236
6.10	89.64	0.237
6.17	90.25	0.237
6.23	90.87	0.238
6.29	91.49	0.238
6.35	92.11	0.239
6.41	92.72	0.240
6.48	93.34	0.240
6.54	93.96	0.241
6.60	94.57	0.241
6.66	95.19	0.242
6.72	95.81	0.243
6.78	96.42	0.243
6.85	97.04	0.244
6.91	97.66	0.244
6.97	98.28	0.245
7.03	98.89	0.245
7.09	99.51	0.246
7.15	100.13	0.247
7.21	100.74	0.247
7.28	101.36	0.248
7.34	101.98	0.249
7.40	102.59	0.249
7.46	103.21	0.250
7.52	103.83	0.250
7.59	104.44	0.251
7.65	105.06	0.252
7.71	105.68	0.252
7.77	106.30	0.253
7.83	106.91	0.253
7.89	107.53	0.254
7.95	108.15	0.255
8.02	108.76	0.255
8.08	109.38	0.256
8.14	110.00	0.257
8.20	110.61	0.257
8.26	111.23	0.258
8.33	111.85	0.259
8.39	112.47	0.259
8.45	113.08	0.260
8.51	113.70	0.261
8.57	114.32	0.261
8.63	114.93	0.262
8.70	115.55	0.262
8.76	116.17	0.263
8.82	116.78	0.264
8.88	117.40	0.264
8.94	118.02	0.265
9.00	118.63	0.266
9.07	119.25	0.267
9.13	119.87	0.267
9.19	120.49	0.268
9.25	121.10	0.269
9.31	121.72	0.269
9.37	122.34	0.270
9.43	122.95	0.271
9.50	123.57	0.272
9.56	124.19	0.272
9.62	124.81	0.273
9.68	125.42	0.274
9.74	126.04	0.275
9.80	126.66	0.275
9.87	127.27	0.276
9.93	127.89	0.277
9.99	128.51	0.278
10.05	129.12	0.278
10.11	129.74	0.279
10.18	130.36	0.280
10.24	130.97	0.281
10.30	131.59	0.282
10.36	132.21	0.282
10.42	132.83	0.283
10.48	133.44	0.284
10.55	134.06	0.285
10.61	134.68	0.285
10.67	135.29	0.286
10.73	135.91	0.287
10.79	136.53	0.288
10.85	137.14	0.288
10.92	137.76	0.289
10.98	138.38	0.290
11.04	138.99	0.290
11.10	139.61	0.291
11.16	140.23	0.292
11.22	140.85	0.292
11.28	141.46	0.293
11.35	142.08	0.294
11.41	142.70	0.295
11.47	143.31	0.295
11.53	143.93	0.296
11.59	144.55	0.297
11.65	145.16	0.298
11.72	145.78	0.301
11.78	146.40	0.303
11.84	147.01	0.304
11.90	147.63	0.305
11.96	148.25	0.307
12.03	148.86	0.311
12.09	149.48	0.316
12.15	150.09	0.325
12.21	150.71	0.344
12.27	151.32	0.369
12.33	151.94	0.399
12.40	152.55	0.435
12.46	153.16	0.477
12.52	153.77	0.517
12.58	154.38	0.556
12.64	154.99	0.575
12.70	155.60	0.611
12.77	156.21	0.634
12.83	156.82	0.649
12.89	157.44	0.656
12.95	158.05	0.658
13.01	158.67	0.659
13.07	159.29	0.659
13.13	159.91	0.657
13.20	160.52	0.652
13.26	161.14	0.645
13.32	161.76	0.639
13.38	162.38	0.634
13.44	163.00	0.630
13.50	163.61	0.627
13.57	164.23	0.624
13.63	164.85	0.622
13.69	165.47	0.620
13.75	166.08	0.618
13.81	166.70	0.617
13.88	167.32	0.617
13.94	167.94	0.617
14.00	168.55	0.617
14.06	169.17	0.618
14.12	169.78	0.620
14.18	170.40	0.626
14.25	171.02	0.631
14.31	171.63	0.638
14.37	172.25	0.648
14.43	172.86	0.659
14.49	173.48	0.672
14.55	174.09	0.683
14.62	174.71	0.704
14.68	175.32	0.719
14.74	175.94	0.739
14.80	176.55	0.757
14.86	177.16	0.777
14.92	177.78	0.801
14.98	178.39	0.815
15.05	179.01	0.837
15.11	179.62	0.873
15.17	180.23	0.904
15.23	180.84	0.937
15.29	181.45	0.981
15.35	182.06	1.018
15.42	182.67	1.061
15.48	183.28	1.115
15.54	183.88	1.186
15.60	184.49	1.238
15.66	185.10	1.306
15.73	185.70	1.463
15.79	186.29	1.571
15.85	186.89	1.619
15.91	187.50	1.702
15.97	188.10	1.762
16.03	188.71	1.835
16.10	189.32	1.882
16.16	189.92	1.942
16.22	190.53	2.000
16.28	191.15	1.885
16.34	191.81	1.365
16.40	192.51	0.787
16.47	193.20	0.592
16.53	193.85	0.524
16.59	194.48	0.491
16.65	195.10	0.478
16.71	195.72	0.473
16.77	196.34	0.470
16.83	196.96	0.469
16.90	197.58	0.468
16.96	198.19	0.468
17.02	198.81	0.468
17.08	199.43	0.468
17.14	200.04	0.468
17.21	200.66	0.469
17.27	201.28	0.469
17.33	201.89	0.470
17.39	202.51	0.471
17.45	203.13	0.472
17.51	203.74	0.474
17.58	204.36	0.475
17.64	204.98	0.476
17.70	205.59	0.477
17.76	206.21	0.478
17.82	206.83	0.479
17.88	207.44	0.480
17.94	208.06	0.479
18.00	208.63	0.479